{
  "resourceType": "Bundle",
  "id": "57789ae4-a217-477f-855e-b9910e44d0a1",
  "type": "collection",
  "timestamp": "2025-10-30T11:22:51Z",
  "meta": {
    "profile": [
      "http://hl7.org/fhir/StructureDefinition/Bundle"
    ],
    "tag": [
      {
        "system": "http://example.org/source",
        "code": "AI_Medical_Pipeline"
      }
    ]
  },
  "entry": [
    {
      "resource": {
        "resourceType": "Condition",
        "id": "d9009bcd-1abd-4a32-b9f9-57f891c3e328",
        "code": {
          "text": "hypertension",
          "coding": [
            {
              "system": "http://snomed.info/sct",
              "code": "38341003",
              "display": "hypertension"
            }
          ]
        },
        "clinicalStatus": {
          "coding": [
            {
              "system": "http://terminology.hl7.org/CodeSystem/condition-clinical",
              "code": "active",
              "display": "Active"
            }
          ],
          "text": "active"
        },
        "subject": {
          "reference": "Patient/2cf0f934-510c-43df-b5ad-b42c82f6b003"
        },
        "asserter": {
          "reference": "Practitioner/7859260b-010e-4a21-be26-ccb8f4787e3b"
        },
        "onsetDateTime": "2025-10-30T11:22:51Z"
      }
    },
    {
      "resource": {
        "resourceType": "Condition",
        "id": "7906d23e-1b3c-4c9e-8aa6-cf8636f18589",
        "code": {
          "text": "hyperlipidemia",
          "coding": [
            {
              "system": "http://snomed.info/sct",
              "code": "55822004",
              "display": "hyperlipidemia"
            }
          ]
        },
        "clinicalStatus": {
          "coding": [
            {
              "system": "http://terminology.hl7.org/CodeSystem/condition-clinical",
              "code": "active",
              "display": "Active"
            }
          ],
          "text": "active"
        },
        "subject": {
          "reference": "Patient/2cf0f934-510c-43df-b5ad-b42c82f6b003"
        },
        "asserter": {
          "reference": "Practitioner/7859260b-010e-4a21-be26-ccb8f4787e3b"
        },
        "onsetDateTime": "2025-10-30T11:22:51Z"
      }
    },
    {
      "resource": {
        "resourceType": "Condition",
        "id": "e4928e56-f63f-4501-80fd-d5f1937d5310",
        "code": {
          "text": "stroke",
          "coding": [
            {
              "system": "http://snomed.info/sct",
              "code": "230690007",
              "display": "stroke"
            }
          ]
        },
        "clinicalStatus": {
          "coding": [
            {
              "system": "http://terminology.hl7.org/CodeSystem/condition-clinical",
              "code": "active",
              "display": "Active"
            }
          ],
          "text": "active"
        },
        "subject": {
          "reference": "Patient/2cf0f934-510c-43df-b5ad-b42c82f6b003"
        },
        "asserter": {
          "reference": "Practitioner/7859260b-010e-4a21-be26-ccb8f4787e3b"
        },
        "onsetDateTime": "2025-10-30T11:22:51Z"
      }
    },
    {
      "resource": {
        "resourceType": "Condition",
        "id": "7b73fcd1-427a-44a2-b17e-0a459250e5e8",
        "code": {
          "text": "cardiac failure",
          "coding": [
            {
              "system": "http://snomed.info/sct",
              "code": "84114007",
              "display": "cardiac failure"
            }
          ]
        },
        "clinicalStatus": {
          "coding": [
            {
              "system": "http://terminology.hl7.org/CodeSystem/condition-clinical",
              "code": "active",
              "display": "Active"
            }
          ],
          "text": "active"
        },
        "subject": {
          "reference": "Patient/2cf0f934-510c-43df-b5ad-b42c82f6b003"
        },
        "asserter": {
          "reference": "Practitioner/7859260b-010e-4a21-be26-ccb8f4787e3b"
        },
        "onsetDateTime": "2025-10-30T11:22:51Z"
      }
    },
    {
      "resource": {
        "resourceType": "Condition",
        "id": "bb44a8a8-a460-4929-975c-92fe34497b1f",
        "code": {
          "text": "chronic renal disease",
          "coding": [
            {
              "system": "http://snomed.info/sct",
              "code": "90721000119101",
              "display": "chronic renal disease"
            }
          ]
        },
        "clinicalStatus": {
          "coding": [
            {
              "system": "http://terminology.hl7.org/CodeSystem/condition-clinical",
              "code": "active",
              "display": "Active"
            }
          ],
          "text": "active"
        },
        "subject": {
          "reference": "Patient/2cf0f934-510c-43df-b5ad-b42c82f6b003"
        },
        "asserter": {
          "reference": "Practitioner/7859260b-010e-4a21-be26-ccb8f4787e3b"
        },
        "onsetDateTime": "2025-10-30T11:22:51Z"
      }
    },
    {
      "resource": {
        "resourceType": "Condition",
        "id": "4a720889-f710-4923-8245-330c4f8ce100",
        "code": {
          "text": "dementia",
          "coding": [
            {
              "system": "http://snomed.info/sct",
              "code": "52448006",
              "display": "dementia"
            }
          ]
        },
        "clinicalStatus": {
          "coding": [
            {
              "system": "http://terminology.hl7.org/CodeSystem/condition-clinical",
              "code": "active",
              "display": "Active"
            }
          ],
          "text": "active"
        },
        "subject": {
          "reference": "Patient/2cf0f934-510c-43df-b5ad-b42c82f6b003"
        },
        "asserter": {
          "reference": "Practitioner/7859260b-010e-4a21-be26-ccb8f4787e3b"
        },
        "onsetDateTime": "2025-10-30T11:22:51Z"
      }
    },
    {
      "resource": {
        "resourceType": "Condition",
        "id": "b4818ad2-8d30-45ee-81e5-6e01b3c01b2d",
        "code": {
          "text": "psychotic symptoms",
          "coding": [
            {
              "system": "http://snomed.info/sct",
              "code": "30746006",
              "display": "psychotic symptoms"
            }
          ]
        },
        "clinicalStatus": {
          "coding": [
            {
              "system": "http://terminology.hl7.org/CodeSystem/condition-clinical",
              "code": "active",
              "display": "Active"
            }
          ],
          "text": "active"
        },
        "subject": {
          "reference": "Patient/2cf0f934-510c-43df-b5ad-b42c82f6b003"
        },
        "asserter": {
          "reference": "Practitioner/7859260b-010e-4a21-be26-ccb8f4787e3b"
        },
        "onsetDateTime": "2025-10-30T11:22:51Z"
      }
    },
    {
      "resource": {
        "resourceType": "Condition",
        "id": "993848b3-f100-4dc2-b1c7-61c3b63c7416",
        "code": {
          "text": "memory deficit",
          "coding": [
            {
              "system": "http://snomed.info/sct",
              "code": "386807006",
              "display": "memory deficit"
            }
          ]
        },
        "clinicalStatus": {
          "coding": [
            {
              "system": "http://terminology.hl7.org/CodeSystem/condition-clinical",
              "code": "active",
              "display": "Active"
            }
          ],
          "text": "active"
        },
        "subject": {
          "reference": "Patient/2cf0f934-510c-43df-b5ad-b42c82f6b003"
        },
        "asserter": {
          "reference": "Practitioner/7859260b-010e-4a21-be26-ccb8f4787e3b"
        },
        "onsetDateTime": "2025-10-30T11:22:51Z"
      }
    },
    {
      "resource": {
        "resourceType": "Encounter",
        "id": "796969cd-d816-47b3-ac55-ca1d8f4f69e1",
        "status": "finished",
        "class": {
          "system": "http://terminology.hl7.org/CodeSystem/v3-ActCode",
          "code": "AMB"
        },
        "subject": {
          "reference": "Patient/2cf0f934-510c-43df-b5ad-b42c82f6b003"
        },
        "period": {
          "start": "2025-10-30T11:22:51Z",
          "end": "2025-10-30T11:22:51Z"
        }
      }
    },
    {
      "resource": {
        "resourceType": "Observation",
        "id": "d8bbabe4-e612-464a-988e-7875902c37de",
        "status": "final",
        "code": {
          "text": "MRI brain scan",
          "coding": [
            {
              "system": "http://loinc.org",
              "code": "24727-0",
              "display": "MRI brain scan"
            }
          ]
        },
        "subject": {
          "reference": "Patient/2cf0f934-510c-43df-b5ad-b42c82f6b003"
        },
        "performer": [
          {
            "reference": "Practitioner/7859260b-010e-4a21-be26-ccb8f4787e3b"
          }
        ],
        "effectiveDateTime": "2025-10-30T11:22:51Z"
      }
    },
    {
      "resource": {
        "resourceType": "Observation",
        "id": "81734e57-7412-4414-9df4-fc4fab40a2e3",
        "status": "final",
        "code": {
          "text": "CT brain",
          "coding": [
            {
              "system": "http://loinc.org",
              "code": "36626-4",
              "display": "CT brain"
            }
          ]
        },
        "subject": {
          "reference": "Patient/2cf0f934-510c-43df-b5ad-b42c82f6b003"
        },
        "performer": [
          {
            "reference": "Practitioner/7859260b-010e-4a21-be26-ccb8f4787e3b"
          }
        ],
        "effectiveDateTime": "2025-10-30T11:22:51Z"
      }
    },
    {
      "resource": {
        "resourceType": "Organization",
        "id": "3d96b122-378e-47ee-a66e-e5063dd28699",
        "name": "Blackacre Hospital"
      }
    },
    {
      "resource": {
        "resourceType": "Organization",
        "id": "ed5e302c-34a9-4bf4-81e8-110ef60a951a",
        "name": "ABC Hospital"
      }
    },
    {
      "resource": {
        "resourceType": "Patient",
        "id": "2cf0f934-510c-43df-b5ad-b42c82f6b003",
        "name": [
          {
            "text": "Mr Tan"
          }
        ],
        "gender": "male",
        "managingOrganization": {
          "reference": "Organization/3d96b122-378e-47ee-a66e-e5063dd28699"
        }
      }
    },
    {
      "resource": {
        "resourceType": "Practitioner",
        "id": "7859260b-010e-4a21-be26-ccb8f4787e3b",
        "name": [
          {
            "text": "Tan Ah Moi"
          }
        ]
      }
    },
    {
      "resource": {
        "resourceType": "Procedure",
        "id": "63825482-719c-4656-aabb-e99c04e2e7dc",
        "status": "completed",
        "code": {
          "text": "rehabilitation"
        },
        "subject": {
          "reference": "Patient/2cf0f934-510c-43df-b5ad-b42c82f6b003"
        },
        "performer": [
          {
            "actor": {
              "reference": "Practitioner/7859260b-010e-4a21-be26-ccb8f4787e3b"
            }
          }
        ],
        "performedDateTime": "2025-10-30T11:22:51Z"
      }
    }
  ]
}